rhoTi45
   No    Ex(MeV)    Rho(1/MeV)    dRho(1/MeV)
   1      0.048      0.336E+01      0.609E-01
   2      0.167      0.347E+01      0.665E-01
   3      0.286      0.326E+01      0.692E-01
   4      0.406      0.286E+01      0.725E-01
   5      0.525      0.287E+01      0.813E-01
   6      0.644      0.275E+01      0.761E-01
   7      0.763      0.277E+01      0.834E-01
   8      0.882      0.283E+01      0.945E-01
   9      1.001      0.277E+01      0.127E+00
  10      1.120      0.357E+01      0.138E+00
  11      1.240      0.496E+01      0.144E+00
  12      1.359      0.670E+01      0.152E+00
  13      1.478      0.818E+01      0.188E+00
  14      1.597      0.963E+01      0.187E+00
  15      1.716      0.983E+01      0.216E+00
  16      1.835      0.104E+02      0.263E+00
  17      1.954      0.110E+02      0.258E+00
  18      2.074      0.110E+02      0.287E+00
  19      2.193      0.101E+02      0.343E+00
  20      2.312      0.117E+02      0.377E+00
  21      2.431      0.124E+02      0.419E+00
  22      2.550      0.127E+02      0.449E+00
  23      2.669      0.153E+02      0.538E+00
  24      2.788      0.152E+02      0.553E+00
  25      2.907      0.177E+02      0.648E+00
  26      3.027      0.223E+02      0.830E+00
  27      3.146      0.268E+02      0.764E+00
  28      3.265      0.304E+02      0.917E+00
  29      3.384      0.363E+02      0.111E+01
  30      3.503      0.386E+02      0.120E+01
  31      3.622      0.447E+02      0.169E+01
  32      3.741      0.479E+02      0.175E+01
  33      3.861      0.513E+02      0.198E+01
  34      3.980      0.532E+02      0.194E+01
  35      4.099      0.529E+02      0.245E+01
  36      4.218      0.493E+02      0.250E+01
  37      4.337      0.551E+02      0.307E+01
  38      4.456      0.594E+02      0.357E+01
  39      4.575      0.700E+02      0.461E+01
  40      4.695      0.844E+02      0.496E+01
  41      4.814      0.841E+02      0.539E+01
  42      4.933      0.855E+02      0.588E+01
  43      5.052      0.887E+02      0.673E+01
  44      5.171      0.105E+03      0.960E+01
  45      5.290      0.131E+03      0.104E+02
  46      5.409      0.162E+03      0.121E+02
  47      5.528      0.174E+03      0.132E+02
  48      5.648      0.146E+03      0.161E+02
  49      5.767      0.142E+03      0.192E+02
  50      5.886      0.161E+03      0.222E+02
  51      6.005      0.148E+03      0.292E+02
  52      6.124      0.145E+03      0.296E+02
  53      6.243      0.217E+03      0.408E+02
  54      6.362      0.183E+03      0.418E+02
  55      6.482      0.230E+03      0.598E+02
  56      6.601      0.232E+03      0.634E+02
  57      6.720      0.251E+03      0.737E+02
  58      6.839      0.201E+03      0.791E+02
  59      6.958      0.239E+03      0.105E+03
  60      7.077      0.224E+03      0.119E+03
  61      7.196      0.254E+03      0.114E+03
  62      7.315      0.196E+03      0.175E+03
  63      7.435      0.167E+03      0.249E+03